Folder: AE4896_analysis/XRD

File: NaBr_Theta_2-Theta.asc
*TYPE		=  Raw
*CLASS		=  ASCII CLASS
*SAMPLE		=  NaBr
*COMMENT	=
*FNAME		=  NaBr_Theta_2-Theta.asc
*DATE		=  21-Feb-25 12:16

*GROUP_COUNT	=  1
*GONIO		=  MiniFlex 300/600, 150
*ATTACHMENT	=  ASC-6
*ASC		=  0, 0, 0.000000, 0.000000
*FILTER		=  None
*C_MONOCHRO	=  None, 0.000000
*SLIT_NAME	=  0, IHS
*SLIT_NAME	=  1, DS +
*SLIT_NAME	=  2, SS
*SLIT_NAME	=  3, RS
*COUNTER	=  SC-70, 0
*POS_FORMAT	=  0
*SCAN_AXIS	=  2theta/theta
*MEAS_MODE	=  Continuous Scanning
*TARGET		=  29
*XRAY_CHAR	=  K-ALPHA
*WAVE_LENGTH1	=  1.54059
*WAVE_LENGTH2	=  1.54441
*THICKNESS	=  0, 0.000000
*MU		=  0, 0.000000
*SCAN_MODE	=  2theta/theta
*SPEED_DIM	=  sec./step
*XUNIT		=  deg.
*YUNIT		=  counts
*SCALE_MODE	=  1
*REP_COUNT	=  0
*SE_COUNT	=  0
*STD_MATERIAL	=  Unknown, Unknown, 0.000000, 0.000000, 0.000000, 0.000000, 0.000000, 0.000000
*LATT_CONS	=  0, Unknown, Unknown, 0.000000, 0.000000, 0.000000, 0.000000, 0.000000, 0.000000
*SEC_COUNT	=  1
*TSPEC_SIZE	=  0
*EXTRA_SIZE	=  0
*MEMO		=

*BEGIN
*GROUP		=  0
*START		=  2.01
*STOP		=  69.99
*STEP		=  0.02
*OFFSET		=  0.000000
*SPEED		=  0.6
*SLIT_SPEC	=  0, 10.0mm, 10, 0.000000
*SLIT_SPEC	=  1, 1.250deg, 1.25, 0.000000
*SLIT_SPEC	=  2, 13.0mm(Open), 13, 0.000000
*SLIT_SPEC	=  3, 13.0mm, 13, 0.000000
*KV		=  40
*MA		=  15
*LOW		=  0.000000
*HIGH		=  0.000000
*CTEMPER	=  0, 0.000000
*CTEMPER	=  1, 0.000000
*CTEMPER	=  2, 0.000000
*PAREX		=  0, 0.000000
*PAREX		=  1, 0.000000
*PAREX		=  2, 0.000000
*PAREX		=  3, 0.000000
*PAREX		=  4, 0.000000
*PAREX		=  5, 0.000000
*PAREX		=  6, 0.000000
*PAREX		=  7, 0.000000
*PAREX		=  8, 0.000000
*PAREX		=  9, 0.000000
*PAREX		=  10, 0.000000
*PAREX		=  11, 0.000000
*PAREX		=  12, 0.000000
*PAREX		=  13, 0.000000
*PAREX		=  14, 0.000000
*PAREX		=  15, 0.000000
*FULL_SCALE	=  2113.2
*INDEX		=  0, 0, 0
*COUNT		=  3400
697, 726, 774, 523
564, 625, 628, 614
540, 617, 576, 527
424, 455, 391, 535
314, 418, 471, 431
378, 306, 356, 320
400, 258, 251, 218
314, 221, 280, 224
276, 251, 202, 271
273, 250, 253, 252
220, 240, 151, 209
229, 212, 251, 186
271, 190, 235, 207
193, 199, 206, 194
219, 170, 221, 182
190, 176, 175, 175
182, 185, 190, 177
153, 199, 177, 200
159, 165, 220, 199
199, 150, 189, 192
208, 164, 175, 201
228, 196, 169, 160
156, 158, 153, 170
156, 161, 183, 190
147, 170, 146, 181
147, 158, 181, 157
120, 176, 178, 164
130, 149, 131, 140
148, 135, 143, 159
133, 131, 124, 153
93, 144, 121, 145
134, 122, 126, 126
120, 104, 115, 104
132, 96, 137, 114
127, 114, 134, 128
102, 120, 129, 102
128, 112, 93, 115
137, 110, 123, 102
91, 79, 80, 100
113, 76, 95, 80
89, 90, 120, 90
114, 84, 96, 94
96, 100, 79, 100
74, 83, 100, 74
77, 67, 71, 86
104, 86, 92, 78
93, 69, 80, 66
69, 80, 84, 71
79, 87, 77, 84
79, 81, 95, 91
75, 85, 73, 85
80, 68, 73, 81
63, 81, 95, 93
104, 82, 75, 72
74, 70, 75, 64
85, 76, 65, 66
64, 48, 68, 57
64, 76, 81, 76
69, 76, 73, 71
59, 72, 70, 61
67, 50, 66, 63
71, 83, 91, 67
114, 134, 151, 217
160, 107, 99, 93
63, 72, 76, 74
72, 60, 63, 57
56, 62, 77, 81
85, 98, 81, 68
71, 53, 57, 67
57, 51, 60, 69
53, 53, 61, 64
61, 55, 67, 54
63, 59, 51, 50
59, 63, 52, 61
62, 58, 52, 75
65, 49, 60, 65
66, 53, 55, 50
49, 63, 49, 59
58, 40, 55, 63
49, 48, 60, 58
60, 61, 54, 56
58, 56, 54, 70
45, 65, 45, 76
66, 47, 52, 68
97, 136, 199, 348
96, 76, 71, 68
78, 59, 85, 67
58, 61, 56, 63
55, 53, 71, 60
178, 174, 117, 115
285, 241, 120, 86
52, 50, 53, 73
61, 62, 59, 53
47, 55, 53, 58
52, 45, 62, 54
55, 51, 48, 47
56, 70, 60, 49
51, 71, 57, 53
70, 56, 66, 71
99, 143, 229, 359
193, 154, 153, 181
60, 74, 69, 63
82, 102, 122, 133
107, 81, 65, 65
65, 67, 61, 75
73, 49, 70, 69
64, 56, 71, 51
52, 65, 54, 53
78, 60, 80, 55
60, 57, 70, 67
77, 79, 86, 66
136, 137, 161, 193
796, 471, 268, 128
65, 83, 93, 81
78, 63, 62, 72
286, 293, 331, 471
466, 316, 235, 136
76, 90, 63, 72
154, 134, 93, 94
125, 125, 112, 93
65, 69, 59, 57
76, 78, 85, 86
69, 68, 59, 57
67, 58, 53, 70
60, 48, 53, 63
74, 80, 78, 109
83, 87, 109, 153
69, 62, 62, 59
71, 75, 55, 54
60, 48, 62, 62
77, 80, 69, 85
220, 216, 181, 127
67, 85, 67, 73
58, 60, 52, 58
65, 66, 74, 66
499, 414, 341, 310
59, 73, 62, 59
62, 72, 63, 55
62, 82, 62, 55
57, 64, 60, 61
85, 114, 199, 241
95, 75, 70, 62
71, 50, 62, 49
57, 67, 63, 51
59, 59, 59, 52
49, 73, 59, 56
61, 49, 54, 62
99, 68, 104, 88
538, 459, 415, 312
64, 58, 66, 58
54, 75, 59, 54
49, 53, 48, 62
62, 69, 70, 63
58, 59, 49, 56
54, 55, 52, 54
60, 60, 50, 61
78, 68, 54, 52
59, 54, 45, 59
55, 48, 66, 49
60, 49, 54, 65
64, 62, 72, 59
54, 44, 56, 43
52, 46, 61, 40
102, 88, 95, 113
59, 88, 100, 75
216, 145, 179, 161
65, 67, 40, 63
52, 47, 47, 62
56, 69, 64, 48
62, 56, 57, 56
74, 76, 82, 76
72, 68, 72, 58
73, 63, 57, 80
55, 78, 58, 74
64, 66, 85, 66
75, 76, 84, 86
64, 55, 58, 54
86, 60, 76, 80
86, 91, 105, 106
657, 462, 477, 559
94, 76, 68, 63
70, 57, 53, 72
69, 80, 67, 78
70, 76, 97, 109
87, 74, 70, 65
105, 103, 74, 61
74, 69, 60, 57
56, 54, 65, 58
56, 55, 59, 53
59, 53, 64, 43
84, 65, 58, 39
54, 62, 51, 53
44, 66, 58, 47
59, 53, 61, 58
62, 40, 49, 58
48, 59, 59, 65
88, 155, 236, 289
87, 63, 54, 51
49, 49, 67, 60
50, 53, 62, 65
56, 58, 67, 58
64, 60, 66, 54
52, 78, 61, 59
57, 50, 61, 62
51, 69, 53, 75
51, 57, 65, 53
43, 67, 59, 48
49, 58, 54, 65
51, 58, 66, 56
76, 60, 56, 66
60, 66, 65, 69
53, 42, 62, 50
63, 61, 64, 65
45, 47, 52, 56
76, 53, 57, 58
55, 53, 49, 43
50, 65, 57, 46
51, 50, 49, 64
43, 59, 57, 47
54, 60, 62, 63
60, 93, 90, 103
79, 75, 54, 72
71, 64, 60, 55
46, 65, 56, 65
66, 67, 64, 54
84, 61, 82, 78
45, 68, 59, 54
66, 57, 59, 62
58, 47, 52, 45
61, 58, 62, 66
53, 70, 51, 59
61, 53, 65, 48
68, 64, 90, 127
118, 113, 91, 93
57, 58, 65, 73
53, 44, 60, 62
58, 52, 59, 62
43, 51, 57, 57
57, 59, 55, 60
49, 49, 61, 53
55, 44, 54, 54
59, 57, 54, 65
61, 61, 53, 53
61, 59, 65, 72
190, 215, 199, 188
56, 76, 65, 62
52, 48, 48, 61
63, 70, 60, 64
54, 58, 68, 62
56, 61, 67, 63
60, 70, 42, 76
67, 57, 49, 63
48, 64, 52, 60
60, 54, 49, 66
61, 49, 49, 55
62, 54, 57, 67
53, 51, 48, 59
56, 52, 52, 51
46, 44, 50, 49
54, 59, 68, 57
49, 47, 56, 50
52, 44, 50, 48
45, 63, 49, 53
59, 51, 51, 63
66, 41, 61, 64
59, 53, 63, 57
41, 51, 53, 48
55, 47, 48, 44
51, 63, 47, 66
57, 65, 47, 51
52, 57, 48, 58
60, 58, 53, 57
55, 54, 50, 73
53, 41, 59, 44
51, 47, 39, 69
47, 56, 52, 53
61, 49, 57, 65
68, 66, 53, 65
58, 55, 59, 59
53, 56, 51, 51
67, 56, 57, 49
58, 52, 61, 59
51, 58, 52, 48
64, 62, 38, 60
*END

*EOF

File: NaCl_Theta_2-Theta.asc
*TYPE		=  Raw
*CLASS		=  ASCII CLASS
*SAMPLE		=  NaCl
*COMMENT	=
*FNAME		=  NaCl_Theta_2-Theta.asc
*DATE		=  21-Feb-25 11:41

*GROUP_COUNT	=  1
*GONIO		=  MiniFlex 300/600, 150
*ATTACHMENT	=  ASC-6
*ASC		=  0, 0, 0.000000, 0.000000
*FILTER		=  None
*C_MONOCHRO	=  None, 0.000000
*SLIT_NAME	=  0, IHS
*SLIT_NAME	=  1, DS +
*SLIT_NAME	=  2, SS
*SLIT_NAME	=  3, RS
*COUNTER	=  SC-70, 0
*POS_FORMAT	=  0
*SCAN_AXIS	=  2theta/theta
*MEAS_MODE	=  Continuous Scanning
*TARGET		=  29
*XRAY_CHAR	=  K-ALPHA
*WAVE_LENGTH1	=  1.54059
*WAVE_LENGTH2	=  1.54441
*THICKNESS	=  0, 0.000000
*MU		=  0, 0.000000
*SCAN_MODE	=  2theta/theta
*SPEED_DIM	=  sec./step
*XUNIT		=  deg.
*YUNIT		=  counts
*SCALE_MODE	=  1
*REP_COUNT	=  0
*SE_COUNT	=  0
*STD_MATERIAL	=  Unknown, Unknown, 0.000000, 0.000000, 0.000000, 0.000000, 0.000000, 0.000000
*LATT_CONS	=  0, Unknown, Unknown, 0.000000, 0.000000, 0.000000, 0.000000, 0.000000, 0.000000
*SEC_COUNT	=  1
*TSPEC_SIZE	=  0
*EXTRA_SIZE	=  0
*MEMO		=

*BEGIN
*GROUP		=  0
*START		=  2.01
*STOP		=  69.99
*STEP		=  0.02
*OFFSET		=  0.000000
*SPEED		=  0.6
*SLIT_SPEC	=  0, 10.0mm, 10, 0.000000
*SLIT_SPEC	=  1, 1.250deg, 1.25, 0.000000
*SLIT_SPEC	=  2, 13.0mm(Open), 13, 0.000000
*SLIT_SPEC	=  3, 13.0mm, 13, 0.000000
*KV		=  40
*MA		=  15
*LOW		=  0.000000
*HIGH		=  0.000000
*CTEMPER	=  0, 0.000000
*CTEMPER	=  1, 0.000000
*CTEMPER	=  2, 0.000000
*PAREX		=  0, 0.000000
*PAREX		=  1, 0.000000
*PAREX		=  2, 0.000000
*PAREX		=  3, 0.000000
*PAREX		=  4, 0.000000
*PAREX		=  5, 0.000000
*PAREX		=  6, 0.000000
*PAREX		=  7, 0.000000
*PAREX		=  8, 0.000000
*PAREX		=  9, 0.000000
*PAREX		=  10, 0.000000
*PAREX		=  11, 0.000000
*PAREX		=  12, 0.000000
*PAREX		=  13, 0.000000
*PAREX		=  14, 0.000000
*PAREX		=  15, 0.000000
*FULL_SCALE	=  14370
*INDEX		=  0, 0, 0
*COUNT		=  3400
706, 864, 728, 694
697, 444, 644, 485
502, 483, 627, 527
479, 577, 458, 522
321, 350, 391, 400
326, 410, 350, 320
260, 215, 235, 271
243, 231, 235, 224
204, 189, 202, 220
188, 174, 177, 212
135, 211, 189, 163
157, 136, 167, 194
134, 148, 140, 158
127, 160, 166, 148
104, 156, 121, 144
140, 149, 172, 128
147, 140, 127, 142
135, 183, 171, 185
198, 224, 214, 222
267, 266, 277, 270
291, 263, 352, 332
286, 325, 253, 347
287, 294, 301, 264
186, 148, 170, 165
101, 106, 100, 117
84, 98, 70, 109
102, 75, 81, 92
106, 83, 96, 76
68, 77, 94, 79
94, 85, 79, 83
87, 103, 91, 97
79, 81, 95, 83
116, 75, 90, 102
66, 68, 116, 105
92, 77, 82, 79
81, 95, 79, 71
81, 53, 65, 49
76, 60, 56, 46
47, 55, 64, 53
72, 54, 41, 62
72, 55, 55, 61
55, 57, 60, 52
51, 56, 40, 52
67, 32, 47, 59
63, 46, 70, 67
44, 57, 64, 58
54, 56, 57, 39
51, 51, 45, 63
51, 40, 52, 54
49, 43, 47, 58
59, 60, 65, 52
60, 67, 58, 56
66, 57, 49, 63
62, 60, 68, 46
51, 70, 56, 55
55, 45, 43, 53
48, 53, 70, 50
69, 54, 63, 68
61, 60, 73, 63
68, 66, 73, 43
56, 65, 55, 47
57, 47, 48, 63
49, 57, 68, 56
54, 52, 57, 37
67, 48, 64, 49
45, 45, 35, 71
40, 43, 53, 50
57, 30, 49, 38
45, 41, 43, 46
45, 43, 40, 48
46, 58, 40, 34
52, 43, 46, 52
39, 35, 39, 39
47, 40, 51, 32
34, 38, 38, 41
38, 38, 49, 41
37, 45, 41, 35
38, 31, 31, 29
38, 36, 38, 25
41, 34, 25, 36
38, 27, 27, 30
30, 42, 24, 36
25, 34, 36, 32
28, 43, 31, 29
37, 32, 26, 29
40, 33, 33, 29
24, 33, 22, 26
27, 23, 25, 29
30, 18, 26, 25
21, 17, 15, 28
23, 18, 22, 23
15, 27, 16, 21
25, 25, 23, 21
30, 25, 18, 19
13, 17, 13, 21
31, 17, 19, 22
22, 22, 24, 20
17, 21, 19, 18
22, 21, 18, 11
16, 24, 18, 21
14, 13, 15, 18
18, 20, 20, 24
12, 13, 18, 15
22, 17, 15, 9
16, 24, 14, 22
42, 60, 74, 71
66, 48, 41, 43
18, 17, 11, 19
22, 20, 16, 15
14, 21, 16, 13
14, 26, 28, 23
103, 84, 64, 50
12, 16, 12, 29
13, 12, 11, 16
13, 20, 19, 15
18, 19, 26, 18
23, 16, 14, 15
9, 19, 12, 16
11, 31, 24, 24
37, 34, 40, 49
67, 75, 69, 61
73, 91, 96, 106
204, 245, 266, 281
549, 692, 956, 1333
11220, 10527, 9174, 7500
332, 243, 234, 222
77, 87, 65, 99
65, 65, 60, 62
49, 51, 44, 46
47, 47, 47, 41
55, 43, 37, 37
41, 41, 35, 34
34, 35, 32, 28
32, 29, 41, 35
34, 47, 29, 26
38, 23, 36, 19
31, 30, 20, 37
29, 27, 21, 23
33, 33, 18, 23
21, 15, 31, 24
31, 23, 27, 24
26, 28, 28, 17
21, 26, 19, 28
20, 25, 29, 25
11, 26, 26, 24
15, 21, 21, 18
19, 18, 21, 19
17, 18, 21, 20
22, 8, 26, 18
10, 14, 18, 19
31, 20, 18, 23
13, 18, 24, 20
21, 16, 11, 10
19, 14, 14, 11
8, 14, 11, 12
12, 16, 18, 15
16, 10, 6, 13
10, 19, 20, 16
15, 9, 15, 18
13, 10, 11, 15
15, 23, 11, 10
15, 15, 15, 8
18, 16, 13, 10
7, 8, 13, 7
5, 9, 11, 13
12, 17, 8, 11
11, 14, 8, 14
14, 11, 13, 11
11, 22, 11, 8
6, 14, 16, 6
5, 14, 10, 14
12, 6, 7, 11
14, 13, 8, 9
16, 12, 8, 11
22, 16, 20, 16
24, 8, 13, 13
15, 13, 16, 24
17, 19, 15, 11
12, 25, 13, 21
49, 39, 36, 52
82, 100, 95, 134
1156, 1069, 968, 881
112, 87, 60, 66
21, 23, 26, 17
10, 15, 19, 14
13, 10, 21, 9
14, 18, 14, 12
13, 16, 14, 12
16, 16, 10, 14
9, 12, 17, 8
7, 13, 12, 16
10, 10, 8, 6
6, 9, 8, 6
14, 11, 5, 12
11, 15, 10, 8
11, 5, 11, 9
5, 5, 6, 11
9, 8, 7, 7
8, 2, 11, 6
10, 12, 9, 4
8, 11, 4, 12
6, 11, 6, 6
6, 8, 6, 8
5, 9, 6, 9
10, 9, 10, 6
7, 9, 11, 5
13, 5, 5, 5
9, 9, 6, 5
7, 6, 8, 9
6, 8, 3, 7
3, 11, 6, 10
4, 9, 5, 4
11, 7, 10, 7
4, 8, 7, 5
8, 1, 4, 9
4, 8, 10, 10
24, 39, 32, 31
11, 11, 9, 12
9, 6, 11, 7
6, 7, 6, 5
5, 7, 9, 7
7, 8, 11, 9
4, 11, 9, 8
4, 8, 7, 8
9, 14, 18, 7
20, 13, 10, 9
25, 54, 43, 75
111, 88, 91, 80
20, 15, 21, 13
13, 8, 7, 9
6, 6, 11, 7
5, 11, 6, 6
2, 10, 12, 4
8, 4, 12, 6
6, 3, 4, 5
5, 6, 5, 7
7, 7, 5, 6
2, 10, 9, 6
14, 8, 9, 11
4, 6, 3, 4
4, 7, 9, 5
6, 7, 5, 9
9, 6, 6, 5
9, 9, 5, 3
4, 3, 6, 6
6, 4, 1, 7
3, 4, 1, 3
6, 4, 4, 7
6, 4, 8, 5
3, 8, 7, 7
7, 3, 8, 7
5, 4, 4, 2
4, 2, 6, 6
5, 6, 2, 5
4, 16, 4, 5
9, 5, 6, 10
7, 7, 12, 9
6, 11, 7, 9
7, 12, 0.000000, 8
4, 9, 8, 10
10, 8, 4, 8
13, 7, 8, 8
9, 11, 5, 12
7, 8, 3, 7
14, 8, 9, 9
10, 7, 18, 11
17, 25, 30, 23
133, 182, 191, 258
257, 217, 199, 196
27, 25, 28, 16
9, 14, 15, 12
12, 3, 6, 16
8, 7, 4, 6
8, 7, 12, 8
8, 8, 9, 12
5, 6, 3, 6
5, 10, 5, 9
10, 6, 6, 7
7, 8, 7, 0.000000
9, 2, 6, 7
9, 8, 8, 4
7, 5, 6, 6
9, 8, 5, 1
8, 8, 9, 6
*END

*EOF